test.thisRepN,test.thisTrialN,test.thisN,test.thisIndex,trial_block_1.thisRepN,trial_block_1.thisTrialN,trial_block_1.thisN,trial_block_1.thisIndex,Inst_1.started,Inst_1.stopped,key_resp_inst_1.keys,key_resp_inst_1.rt,key_resp_inst_1.started,key_resp_inst_1.stopped,Clear_screen.started,Clear_screen.stopped,Fixation.started,Fixation.stopped,Stimulus.started,Stimulus.stopped,test_resp.keys,test_resp.rt,test_resp.started,test_resp.stopped,Inst_2.started,Inst_2.stopped,key_resp_inst_2.keys,key_resp_inst_2.rt,key_resp_inst_2.started,key_resp_inst_2.stopped,Bodziec.started,Bodziec.stopped,key_resp.keys,key_resp.rt,key_resp.started,key_resp.stopped,image.started,image.stopped,End.started,End.stopped,key_resp_2.keys,key_resp_2.rt,key_resp_2.started,key_resp_2.stopped,participant,session,date,expName,psychopyVersion,frameRate,
,,,,,,,,7.393442399999913,None,space,0.542263000003004,7.393442399999913,None,,,,,,,,,,,,,,,,,,,,,,,,,,,,,,,1,001,2019_Jul_03_1416,untitled,3.1.2,60.044805434653796,
0,0,0,0,,,,,,,,,,,7.951800099999673,None,9.968304999998509,None,10.451181599997653,None,space,0.3003707000025315,10.451181599997653,None,,,,,,,,,,,,,,,,,,,,,1,001,2019_Jul_03_1416,untitled,3.1.2,60.044805434653796,
1,0,1,0,,,,,,,,,,,,,11.784261999997398,None,12.267715499998303,None,space,0.25022750000061933,12.267715499998303,None,,,,,,,,,,,,,,,,,,,,,1,001,2019_Jul_03_1416,untitled,3.1.2,60.044805434653796,
2,0,2,0,,,,,,,,,,,,,13.550449999998818,None,14.033642299997155,None,space,0.283877299996675,14.033642299997155,None,,,,,,,,,,,,,,,,,,,,,1,001,2019_Jul_03_1416,untitled,3.1.2,60.044805434653796,
3,0,3,0,,,,,,,,,,,,,15.35013379999873,None,15.833269899998413,None,space,0.2003538999997545,15.833269899998413,None,,,,,,,,,,,,,,,,,,,,,1,001,2019_Jul_03_1416,untitled,3.1.2,60.044805434653796,
4,0,4,0,,,,,,,,,,,,,17.066322699996817,None,17.549620499998127,None,space,0.23351130000082776,17.549620499998127,None,,,,,,,,,,,,,,,,,,,,,1,001,2019_Jul_03_1416,untitled,3.1.2,60.044805434653796,
5,0,5,0,,,,,,,,,,,,,18.815871999999217,None,19.29919769999833,None,space,0.31698120000146446,19.29919769999833,None,,,,,,,,,,,,,,,,,,,,,1,001,2019_Jul_03_1416,untitled,3.1.2,60.044805434653796,
6,0,6,0,,,,,,,,,,,,,20.64887699999963,None,21.13195789999736,None,space,0.21715079999921727,21.13195789999736,None,,,,,,,,,,,,,,,,,,,,,1,001,2019_Jul_03_1416,untitled,3.1.2,60.044805434653796,
7,0,7,0,,,,,,,,,,,,,22.381657099998847,None,22.86496889999762,None,space,0.233437299997604,22.86496889999762,None,,,,,,,,,,,,,,,,,,,,,1,001,2019_Jul_03_1416,untitled,3.1.2,60.044805434653796,
8,0,8,0,,,,,,,,,,,,,24.131245799999306,None,24.614497599999595,None,space,0.2667385999993712,24.614497599999595,None,,,,,,,,,,,,,,,,,,,,,1,001,2019_Jul_03_1416,untitled,3.1.2,60.044805434653796,
9,0,9,0,,,,,,,,,,,,,25.914142399997218,None,26.397491299998364,None,space,0.1840808000015386,26.397491299998364,None,,,,,,,,,,,,,,,,,,,,,1,001,2019_Jul_03_1416,untitled,3.1.2,60.044805434653796,
,,,,,,,,,,,,,,,,,,,,,,,,27.61405449999802,None,space,0.566583100000571,27.61405449999802,None,,,,,,,,,,,,,,,1,001,2019_Jul_03_1416,untitled,3.1.2,60.044805434653796,
,,,,0,0,0,0,,,,,,,,,29.213403099998686,None,,,,,,,,,,,,,29.696670199999062,None,space,0.21672639999815146,29.696670199999062,None,30.02764699999898,None,,,,,,,1,001,2019_Jul_03_1416,untitled,3.1.2,60.044805434653796,
,,,,1,0,1,0,,,,,,,,,32.94597950000025,None,,,,,,,,,,,,,33.42913559999943,None,space,0.017244799997570226,33.42913559999943,None,33.48299079999924,None,,,,,,,1,001,2019_Jul_03_1416,untitled,3.1.2,60.044805434653796,
,,,,2,0,2,0,,,,,,,,,36.47841469999912,None,,,,,,,,,,,,,36.961481399997865,None,space,0.06765169999926002,36.961481399997865,None,37.0651958999988,None,,,,,,,1,001,2019_Jul_03_1416,untitled,3.1.2,60.044805434653796,
,,,,3,0,3,0,,,,,,,,,40.06087669999761,None,,,,,,,,,,,,,40.543978799996694,None,space,0.11695770000005723,40.543978799996694,None,40.697686199997406,None,,,,,,,1,001,2019_Jul_03_1416,untitled,3.1.2,60.044805434653796,
,,,,4,0,4,0,,,,,,,,,43.693191899998055,None,,,,,,,,,,,,,44.176579999999376,44.39302449999741,space,0.9501175999976113,44.176579999999376,None,45.16238419999718,None,,,,,,,1,001,2019_Jul_03_1416,untitled,3.1.2,60.044805434653796,
,,,,5,0,5,0,,,,,,,,,48.15881829999853,None,,,,,,,,,,,,,48.64202490000025,48.79196450000018,space,0.2337478999979794,48.64202490000025,None,48.913510999998834,None,,,,,,,1,001,2019_Jul_03_1416,untitled,3.1.2,60.044805434653796,
,,,,6,0,6,0,,,,,,,,,51.90803169999708,None,,,,,,,,,,,,,52.39110089999667,52.59105029999773,space,0.2003112999991572,52.39110089999667,None,52.6281573999986,None,,,,,,,1,001,2019_Jul_03_1416,untitled,3.1.2,60.044805434653796,
,,,,7,0,7,0,,,,,,,,,55.623577399997885,None,,,,,,,,,,,,,56.1070269999982,None,space,0.13354659999822616,56.1070269999982,None,56.27710179999849,None,,,,,,,1,001,2019_Jul_03_1416,untitled,3.1.2,60.044805434653796,
,,,,8,0,8,0,,,,,,,,,59.27279749999798,None,,,,,,,,,,,,,59.756045999998605,None,space,0.13431949999721837,59.756045999998605,None,59.927032899999176,None,,,,,,,1,001,2019_Jul_03_1416,untitled,3.1.2,60.044805434653796,
,,,,9,0,9,0,,,,,,,,,62.921910499997466,None,,,,,,,,,,,,,63.40529629999946,63.50512650000019,space,0.23424840000006952,63.40529629999946,None,63.677369799999724,None,,,,,,,1,001,2019_Jul_03_1416,untitled,3.1.2,60.044805434653796,
,,,,10,0,10,0,,,,,,,,,66.67098149999947,None,,,,,,,,,,,,,67.15428319999774,None,space,0.11690050000106567,67.15428319999774,None,67.3074431999994,None,,,,,,,1,001,2019_Jul_03_1416,untitled,3.1.2,60.044805434653796,
,,,,11,0,11,0,,,,,,,,,70.30403680000018,None,,,,,,,,,,,,,70.7867202999987,70.92019669999718,space,0.31710739999834914,70.7867202999987,None,71.14091879999978,None,,,,,,,1,001,2019_Jul_03_1416,untitled,3.1.2,60.044805434653796,
,,,,12,0,12,0,,,,,,,,,74.13590130000011,None,,,,,,,,,,,,,74.61922199999754,74.76917209999738,space,0.18402810000043246,74.61922199999754,None,74.84045259999766,None,,,,,,,1,001,2019_Jul_03_1416,untitled,3.1.2,60.044805434653796,
,,,,13,0,13,0,,,,,,,,,77.83502099999896,None,,,,,,,,,,,,,78.31822029999967,78.48482890000014,space,0.166830399997707,78.31822029999967,None,78.52186199999778,None,,,,,,,1,001,2019_Jul_03_1416,untitled,3.1.2,60.044805434653796,
,,,,14,0,14,0,,,,,,,,,81.51752349999879,None,,,,,,,,,,,,,82.00055639999846,82.15058659999704,space,0.20036850000178674,82.00055639999846,None,82.23948569999993,None,,,,,,,1,001,2019_Jul_03_1416,untitled,3.1.2,60.044805434653796,
,,,,15,0,15,0,,,,,,,,,85.23320429999876,None,,,,,,,,,,,,,85.71649519999846,85.89982189999864,space,0.2503891999986081,85.71649519999846,None,86.0037513999996,None,,,,,,,1,001,2019_Jul_03_1416,untitled,3.1.2,60.044805434653796,
,,,,16,0,16,0,,,,,,,,,88.99911079999947,None,,,,,,,,,,,,,89.48217799999838,89.59879309999815,space,0.25029709999944316,89.48217799999838,None,89.76963949999845,None,,,,,,,1,001,2019_Jul_03_1416,untitled,3.1.2,60.044805434653796,
,,,,17,0,17,0,,,,,,,,,92.76467879999836,None,,,,,,,,,,,,,93.24815200000012,None,space,0.10019090000059805,93.24815200000012,None,93.38475089999702,None,,,,,,,1,001,2019_Jul_03_1416,untitled,3.1.2,60.044805434653796,
,,,,18,0,18,0,,,,,,,,,96.38052339999922,None,,,,,,,,,,,,,96.86369449999984,None,space,0.18397139999797218,96.86369449999984,None,97.08341189999919,None,,,,,,,1,001,2019_Jul_03_1416,untitled,3.1.2,60.044805434653796,
,,,,19,0,19,0,,,,,,,,,100.0801466999983,None,,,,,,,,,,,,,100.56284699999742,100.66282419999698,space,0.11730600000009872,100.56284699999742,None,100.71662999999899,None,,,,,,,1,001,2019_Jul_03_1416,untitled,3.1.2,60.044805434653796,
,,,,,,,,,,,,,,,,,,,,,,,,,,,,,,,,,,,,,,103.71213709999938,None,space,0.9998984999983804,103.71213709999938,None,1,001,2019_Jul_03_1416,untitled,3.1.2,60.044805434653796,
